N Landsat 8 Relative Spectral Response V1.2
Aer
  426.0000 0.0000000  23474.18
  427.0000 0.0000730  23419.20
  428.0000 0.0006090  23364.49
  429.0000 0.0016280  23310.02
  430.0000 0.0034210  23255.81
  431.0000 0.0080190  23201.86
  432.0000 0.0247670  23148.15
  433.0000 0.0856880  23094.69
  434.0000 0.2541490  23041.47
  435.0000 0.5178210  22988.51
  436.0000 0.7651170  22935.78
  437.0000 0.9087490  22883.30
  438.0000 0.9582040  22831.05
  439.0000 0.9773930  22779.04
  440.0000 0.9837900  22727.27
  441.0000 0.9890520  22675.74
  442.0000 0.9867130  22624.43
  443.0000 0.9936830  22573.36
  444.0000 0.9931370  22522.52
  445.0000 1.0000000  22471.91
  446.0000 0.9969690  22421.52
  447.0000 0.9827800  22371.36
  448.0000 0.9726920  22321.43
  449.0000 0.9058080  22271.71
  450.0000 0.7456060  22222.22
  451.0000 0.4713290  22172.95
  452.0000 0.2264120  22123.89
  453.0000 0.0928600  22075.06
  454.0000 0.0366030  22026.43
  455.0000 0.0145370  21978.02
  456.0000 0.0058290  21929.82
  457.0000 0.0024140  21881.84
  458.0000 0.0009840  21834.06
  459.0000 0.0002550  21786.49
  460.0000 0.0000000  21739.13
Blu
  435.0000 0.0000000  22988.51
  436.0000 0.0000100  22935.78
  437.0000 0.0000610  22883.30
  438.0000 0.0001170  22831.05
  439.0000 0.0002410  22779.04
  440.0000 0.0003490  22727.27
  441.0000 0.0004550  22675.74
  442.0000 0.0007560  22624.43
  443.0000 0.0011970  22573.36
  444.0000 0.0020700  22522.52
  445.0000 0.0037120  22471.91
  446.0000 0.0068690  22421.52
  447.0000 0.0132120  22371.36
  448.0000 0.0271700  22321.43
  449.0000 0.0586060  22271.71
  450.0000 0.1308760  22222.22
  451.0000 0.2713700  22172.95
  452.0000 0.4935420  22123.89
  453.0000 0.7239710  22075.06
  454.0000 0.8575100  22026.43
  455.0000 0.8942220  21978.02
  456.0000 0.9030340  21929.82
  457.0000 0.9109280  21881.84
  458.0000 0.9098800  21834.06
  459.0000 0.8994750  21786.49
  460.0000 0.8979770  21739.13
  461.0000 0.8896670  21691.97
  462.0000 0.8835420  21645.02
  463.0000 0.8774530  21598.27
  464.0000 0.8810110  21551.72
  465.0000 0.8747210  21505.38
  466.0000 0.8796880  21459.23
  467.0000 0.8865690  21413.28
  468.0000 0.8919130  21367.52
  469.0000 0.8876800  21321.96
  470.0000 0.8611570  21276.60
  471.0000 0.8485330  21231.42
  472.0000 0.8408280  21186.44
  473.0000 0.8283390  21141.65
  474.0000 0.8442020  21097.05
  475.0000 0.8658640  21052.63
  476.0000 0.8684970  21008.40
  477.0000 0.8902530  20964.36
  478.0000 0.9125380  20920.50
  479.0000 0.9103850  20876.83
  480.0000 0.9188220  20833.33
  481.0000 0.9317260  20790.02
  482.0000 0.9318130  20746.89
  483.0000 0.9542480  20703.93
  484.0000 0.9555450  20661.16
  485.0000 0.9624200  20618.56
  486.0000 0.9564240  20576.13
  487.0000 0.9533520  20533.88
  488.0000 0.9785640  20491.80
  489.0000 0.9891040  20449.90
  490.0000 0.9856150  20408.16
  491.0000 0.9894690  20366.60
  492.0000 0.9822620  20325.20
  493.0000 0.9688010  20283.98
  494.0000 0.9673320  20242.91
  495.0000 0.9768360  20202.02
  496.0000 0.9887290  20161.29
  497.0000 0.9808260  20120.72
  498.0000 0.9673610  20080.32
  499.0000 0.9547540  20040.08
  500.0000 0.9641320  20000.00
  501.0000 0.9661250  19960.08
  502.0000 0.9667720  19920.32
  503.0000 0.9818340  19880.72
  504.0000 0.9823200  19841.27
  505.0000 0.9656850  19801.98
  506.0000 0.9631350  19762.85
  507.0000 0.9722610  19723.87
  508.0000 0.9964980  19685.04
  509.0000 1.0000000  19646.37
  510.0000 0.9556000  19607.84
  511.0000 0.8448930  19569.47
  512.0000 0.5345920  19531.25
  513.0000 0.1907380  19493.18
  514.0000 0.0483290  19455.25
  515.0000 0.0138940  19417.48
  516.0000 0.0053280  19379.84
  517.0000 0.0026110  19342.36
  518.0000 0.0015570  19305.02
  519.0000 0.0011000  19267.82
  520.0000 0.0007850  19230.77
  521.0000 0.0005160  19193.86
  522.0000 0.0003210  19157.09
  523.0000 0.0001620  19120.46
  524.0000 0.0000720  19083.97
  525.0000 0.0000570  19047.62
  526.0000 0.0000230  19011.41
  527.0000 0.0000320  18975.33
  528.0000 0.0000000  18939.39
Grn
  512.0000 0.0000000  19531.25
  513.0000 0.0000160  19493.18
  514.0000 0.0001100  19455.25
  515.0000 0.0002470  19417.48
  516.0000 0.0003620  19379.84
  517.0000 0.0006480  19342.36
  518.0000 0.0009350  19305.02
  519.0000 0.0013320  19267.82
  520.0000 0.0018160  19230.77
  521.0000 0.0025150  19193.86
  522.0000 0.0034460  19157.09
  523.0000 0.0048800  19120.46
  524.0000 0.0070240  19083.97
  525.0000 0.0104410  19047.62
  526.0000 0.0162470  19011.41
  527.0000 0.0255130  18975.33
  528.0000 0.0414510  18939.39
  529.0000 0.0705510  18903.59
  530.0000 0.1234440  18867.92
  531.0000 0.2116800  18832.39
  532.0000 0.3538850  18796.99
  533.0000 0.5458560  18761.73
  534.0000 0.7412050  18726.59
  535.0000 0.8652250  18691.59
  536.0000 0.9273960  18656.72
  537.0000 0.9546270  18621.97
  538.0000 0.9541630  18587.36
  539.0000 0.9592150  18552.88
  540.0000 0.9613280  18518.52
  541.0000 0.9649020  18484.29
  542.0000 0.9698730  18450.18
  543.0000 0.9524890  18416.21
  544.0000 0.9613970  18382.35
  545.0000 0.9782700  18348.62
  546.0000 0.9775330  18315.02
  547.0000 0.9770010  18281.54
  548.0000 0.9808840  18248.18
  549.0000 0.9907840  18214.94
  550.0000 1.0000000  18181.82
  551.0000 0.9922640  18148.82
  552.0000 0.9826420  18115.94
  553.0000 0.9838320  18083.18
  554.0000 0.9777650  18050.54
  555.0000 0.9650810  18018.02
  556.0000 0.9573140  17985.61
  557.0000 0.9462450  17953.32
  558.0000 0.9478710  17921.15
  559.0000 0.9590380  17889.09
  560.0000 0.9665340  17857.14
  561.0000 0.9776560  17825.31
  562.0000 0.9664470  17793.59
  563.0000 0.9533990  17761.99
  564.0000 0.9583140  17730.50
  565.0000 0.9700390  17699.12
  566.0000 0.9786070  17667.84
  567.0000 0.9833970  17636.68
  568.0000 0.9809600  17605.63
  569.0000 0.9745220  17574.69
  570.0000 0.9672290  17543.86
  571.0000 0.9794060  17513.13
  572.0000 0.9782080  17482.52
  573.0000 0.9758180  17452.01
  574.0000 0.9743920  17421.60
  575.0000 0.9799730  17391.30
  576.0000 0.9688270  17361.11
  577.0000 0.9691810  17331.02
  578.0000 0.9678380  17301.04
  579.0000 0.9829560  17271.16
  580.0000 0.9795980  17241.38
  581.0000 0.9638110  17211.70
  582.0000 0.9688860  17182.13
  583.0000 0.9836550  17152.66
  584.0000 0.9866570  17123.29
  585.0000 0.9742070  17094.02
  586.0000 0.9464070  17064.85
  587.0000 0.9044780  17035.78
  588.0000 0.8092750  17006.80
  589.0000 0.6849740  16977.93
  590.0000 0.5253040  16949.15
  591.0000 0.3453640  16920.47
  592.0000 0.1904670  16891.89
  593.0000 0.0878330  16863.41
  594.0000 0.0353930  16835.02
  595.0000 0.0140770  16806.72
  596.0000 0.0059440  16778.52
  597.0000 0.0025740  16750.42
  598.0000 0.0010460  16722.41
  599.0000 0.0003940  16694.49
  600.0000 0.0000850  16666.67
  601.0000 0.0000000  16638.94
Red
  625.0000 0.0000000  16000.00
  626.0000 0.0002700  15974.44
  627.0000 0.0008950  15948.96
  628.0000 0.0018500  15923.57
  629.0000 0.0036480  15898.25
  630.0000 0.0071970  15873.02
  631.0000 0.0145150  15847.86
  632.0000 0.0304320  15822.78
  633.0000 0.0668610  15797.79
  634.0000 0.1485180  15772.87
  635.0000 0.2997780  15748.03
  636.0000 0.5268120  15723.27
  637.0000 0.7644430  15698.59
  638.0000 0.9054730  15673.98
  639.0000 0.9479490  15649.45
  640.0000 0.9508230  15625.00
  641.0000 0.9474180  15600.62
  642.0000 0.9518310  15576.32
  643.0000 0.9627050  15552.10
  644.0000 0.9750750  15527.95
  645.0000 0.9841730  15503.88
  646.0000 0.9836130  15479.88
  647.0000 0.9834340  15455.95
  648.0000 0.9829110  15432.10
  649.0000 0.9736360  15408.32
  650.0000 0.9594410  15384.62
  651.0000 0.9556410  15360.98
  652.0000 0.9555480  15337.42
  653.0000 0.9533370  15313.94
  654.0000 0.9566280  15290.52
  655.0000 0.9816880  15267.18
  656.0000 1.0000000  15243.90
  657.0000 0.9923880  15220.70
  658.0000 0.9846150  15197.57
  659.0000 0.9815680  15174.51
  660.0000 0.9769600  15151.52
  661.0000 0.9729800  15128.59
  662.0000 0.9810800  15105.74
  663.0000 0.9968040  15082.96
  664.0000 0.9921420  15060.24
  665.0000 0.9806780  15037.59
  666.0000 0.9640020  15015.02
  667.0000 0.9621540  14992.50
  668.0000 0.9707780  14970.06
  669.0000 0.9671800  14947.68
  670.0000 0.9669280  14925.37
  671.0000 0.9499280  14903.13
  672.0000 0.8488550  14880.95
  673.0000 0.6093590  14858.84
  674.0000 0.3163500  14836.80
  675.0000 0.1239460  14814.81
  676.0000 0.0460330  14792.90
  677.0000 0.0177020  14771.05
  678.0000 0.0073330  14749.26
  679.0000 0.0032050  14727.54
  680.0000 0.0014020  14705.88
  681.0000 0.0005540  14684.29
  682.0000 0.0001170  14662.76
  683.0000 0.0000000  14641.29
NIR
  829.0000 0.0000000  12062.73
  830.0000 0.0000110  12048.19
  831.0000 0.0000500  12033.69
  832.0000 0.0001000  12019.23
  833.0000 0.0002390  12004.80
  834.0000 0.0003140  11990.41
  835.0000 0.0004950  11976.05
  836.0000 0.0007190  11961.72
  837.0000 0.0009860  11947.43
  838.0000 0.0014450  11933.17
  839.0000 0.0021070  11918.95
  840.0000 0.0031600  11904.76
  841.0000 0.0047440  11890.61
  842.0000 0.0070590  11876.48
  843.0000 0.0109000  11862.40
  844.0000 0.0173460  11848.34
  845.0000 0.0283320  11834.32
  846.0000 0.0481910  11820.33
  847.0000 0.0843630  11806.38
  848.0000 0.1453650  11792.45
  849.0000 0.2497330  11778.56
  850.0000 0.4035260  11764.71
  851.0000 0.5826230  11750.88
  852.0000 0.7450370  11737.09
  853.0000 0.8903150  11723.33
  854.0000 0.9602150  11709.60
  855.0000 0.9868330  11695.91
  856.0000 0.9731330  11682.24
  857.0000 0.9806060  11668.61
  858.0000 0.9961200  11655.01
  859.0000 1.0000000  11641.44
  860.0000 0.9897770  11627.91
  861.0000 0.9807330  11614.40
  862.0000 0.9759350  11600.93
  863.0000 0.9720430  11587.49
  864.0000 0.9573570  11574.07
  865.0000 0.9512090  11560.69
  866.0000 0.9470440  11547.34
  867.0000 0.9531620  11534.03
  868.0000 0.9514990  11520.74
  869.0000 0.9484500  11507.48
  870.0000 0.9400940  11494.25
  871.0000 0.9506320  11481.06
  872.0000 0.9560790  11467.89
  873.0000 0.9664600  11454.75
  874.0000 0.9698210  11441.65
  875.0000 0.9366100  11428.57
  876.0000 0.8910660  11415.53
  877.0000 0.7887330  11402.51
  878.0000 0.6353200  11389.52
  879.0000 0.4483640  11376.56
  880.0000 0.2888470  11363.64
  881.0000 0.1746190  11350.74
  882.0000 0.1003430  11337.87
  883.0000 0.0582650  11325.03
  884.0000 0.0345320  11312.22
  885.0000 0.0207200  11299.44
  886.0000 0.0124400  11286.68
  887.0000 0.0076010  11273.96
  888.0000 0.0047020  11261.26
  889.0000 0.0029440  11248.59
  890.0000 0.0018700  11235.96
  891.0000 0.0011920  11223.34
  892.0000 0.0007430  11210.76
  893.0000 0.0004230  11198.21
  894.0000 0.0002410  11185.68
  895.0000 0.0001160  11173.18
  896.0000 0.0000440  11160.71
  897.0000 0.0000000  11148.27
Cir
 1340.0000 0.0000000   7462.69
 1341.0000 0.0000860   7457.12
 1342.0000 0.0001940   7451.56
 1343.0000 0.0003210   7446.02
 1344.0000 0.0004690   7440.48
 1345.0000 0.0006470   7434.94
 1346.0000 0.0008560   7429.42
 1347.0000 0.0011190   7423.90
 1348.0000 0.0014290   7418.40
 1349.0000 0.0018280   7412.90
 1350.0000 0.0023180   7407.41
 1351.0000 0.0030300   7401.92
 1352.0000 0.0040110   7396.45
 1353.0000 0.0053980   7390.98
 1354.0000 0.0071940   7385.52
 1355.0000 0.0111240   7380.07
 1356.0000 0.0169850   7374.63
 1357.0000 0.0263210   7369.20
 1358.0000 0.0427560   7363.77
 1359.0000 0.0692200   7358.35
 1360.0000 0.1153510   7352.94
 1361.0000 0.1828330   7347.54
 1362.0000 0.3163330   7342.14
 1363.0000 0.4570300   7336.76
 1364.0000 0.5968520   7331.38
 1365.0000 0.7721180   7326.01
 1366.0000 0.8623940   7320.64
 1367.0000 0.8715750   7315.29
 1368.0000 0.9303080   7309.94
 1369.0000 0.9626640   7304.60
 1370.0000 0.9312470   7299.27
 1371.0000 0.9386760   7293.95
 1372.0000 0.9837480   7288.63
 1373.0000 0.9996260   7283.32
 1374.0000 0.9869680   7278.02
 1375.0000 1.0000000   7272.73
 1376.0000 0.9832390   7267.44
 1377.0000 0.9905770   7262.16
 1378.0000 0.9635840   7256.89
 1379.0000 0.9640540   7251.63
 1380.0000 0.8713430   7246.38
 1381.0000 0.8726890   7241.13
 1382.0000 0.7031980   7235.89
 1383.0000 0.6065780   7230.66
 1384.0000 0.4524340   7225.43
 1385.0000 0.2979200   7220.22
 1386.0000 0.1909780   7215.01
 1387.0000 0.1130550   7209.81
 1388.0000 0.0661740   7204.61
 1389.0000 0.0415130   7199.42
 1390.0000 0.0260840   7194.24
 1391.0000 0.0162180   7189.07
 1392.0000 0.0097740   7183.91
 1393.0000 0.0068390   7178.75
 1394.0000 0.0043580   7173.60
 1395.0000 0.0027800   7168.46
 1396.0000 0.0018090   7163.32
 1397.0000 0.0013510   7158.20
 1398.0000 0.0008870   7153.08
 1399.0000 0.0004810   7147.96
 1400.0000 0.0002200   7142.86
 1401.0000 0.0001140   7137.76
 1402.0000 0.0000290   7132.67
 1403.0000 0.0000000   7127.58
SW1
 1515.0000 0.0000000   6600.66
 1516.0000 0.0000670   6596.31
 1517.0000 0.0001510   6591.96
 1518.0000 0.0002490   6587.62
 1519.0000 0.0003480   6583.28
 1520.0000 0.0004660   6578.95
 1521.0000 0.0005850   6574.62
 1522.0000 0.0007580   6570.30
 1523.0000 0.0009320   6565.99
 1524.0000 0.0011500   6561.68
 1525.0000 0.0013690   6557.38
 1526.0000 0.0016130   6553.08
 1527.0000 0.0018590   6548.79
 1528.0000 0.0021720   6544.50
 1529.0000 0.0024880   6540.22
 1530.0000 0.0028810   6535.95
 1531.0000 0.0032770   6531.68
 1532.0000 0.0037720   6527.42
 1533.0000 0.0042710   6523.16
 1534.0000 0.0048980   6518.90
 1535.0000 0.0055280   6514.66
 1536.0000 0.0064210   6510.42
 1537.0000 0.0073190   6506.18
 1538.0000 0.0084590   6501.95
 1539.0000 0.0096060   6497.73
 1540.0000 0.0109890   6493.51
 1541.0000 0.0123720   6489.29
 1542.0000 0.0143030   6485.08
 1543.0000 0.0162480   6480.88
 1544.0000 0.0190290   6476.68
 1545.0000 0.0218310   6472.49
 1546.0000 0.0258900   6468.31
 1547.0000 0.0299520   6464.12
 1548.0000 0.0351710   6459.95
 1549.0000 0.0404340   6455.78
 1550.0000 0.0478640   6451.61
 1551.0000 0.0553520   6447.45
 1552.0000 0.0657320   6443.30
 1553.0000 0.0761660   6439.15
 1554.0000 0.0890240   6435.01
 1555.0000 0.1018930   6430.87
 1556.0000 0.1201500   6426.74
 1557.0000 0.1386420   6422.61
 1558.0000 0.1631270   6418.49
 1559.0000 0.1878030   6414.37
 1560.0000 0.2202610   6410.26
 1561.0000 0.2528940   6406.15
 1562.0000 0.2913590   6402.05
 1563.0000 0.3299390   6397.95
 1564.0000 0.3756480   6393.86
 1565.0000 0.4214700   6389.78
 1566.0000 0.4735600   6385.70
 1567.0000 0.5256810   6381.62
 1568.0000 0.5787870   6377.55
 1569.0000 0.6316450   6373.49
 1570.0000 0.6766830   6369.43
 1571.0000 0.7212820   6365.37
 1572.0000 0.7547700   6361.32
 1573.0000 0.7882480   6357.28
 1574.0000 0.8211550   6353.24
 1575.0000 0.8540650   6349.21
 1576.0000 0.8733700   6345.18
 1577.0000 0.8918300   6341.15
 1578.0000 0.8998170   6337.14
 1579.0000 0.9072520   6333.12
 1580.0000 0.9130090   6329.11
 1581.0000 0.9186850   6325.11
 1582.0000 0.9229530   6321.11
 1583.0000 0.9271630   6317.12
 1584.0000 0.9268600   6313.13
 1585.0000 0.9264130   6309.15
 1586.0000 0.9250590   6305.17
 1587.0000 0.9236830   6301.20
 1588.0000 0.9239530   6297.23
 1589.0000 0.9242590   6293.27
 1590.0000 0.9228280   6289.31
 1591.0000 0.9213830   6285.36
 1592.0000 0.9220610   6281.41
 1593.0000 0.9227560   6277.46
 1594.0000 0.9246480   6273.53
 1595.0000 0.9266050   6269.59
 1596.0000 0.9345520   6265.66
 1597.0000 0.9425250   6261.74
 1598.0000 0.9443510   6257.82
 1599.0000 0.9458720   6253.91
 1600.0000 0.9461750   6250.00
 1601.0000 0.9464320   6246.10
 1602.0000 0.9470060   6242.20
 1603.0000 0.9475890   6238.30
 1604.0000 0.9501940   6234.41
 1605.0000 0.9528590   6230.53
 1606.0000 0.9513030   6226.65
 1607.0000 0.9496700   6222.78
 1608.0000 0.9530470   6218.91
 1609.0000 0.9564940   6215.04
 1610.0000 0.9590470   6211.18
 1611.0000 0.9615450   6207.32
 1612.0000 0.9600480   6203.47
 1613.0000 0.9583350   6199.63
 1614.0000 0.9598350   6195.79
 1615.0000 0.9614700   6191.95
 1616.0000 0.9608570   6188.12
 1617.0000 0.9601750   6184.29
 1618.0000 0.9608130   6180.47
 1619.0000 0.9614860   6176.65
 1620.0000 0.9647030   6172.84
 1621.0000 0.9679430   6169.03
 1622.0000 0.9693140   6165.23
 1623.0000 0.9705890   6161.43
 1624.0000 0.9737130   6157.64
 1625.0000 0.9769060   6153.85
 1626.0000 0.9791000   6150.06
 1627.0000 0.9812580   6146.28
 1628.0000 0.9812850   6142.51
 1629.0000 0.9813720   6138.74
 1630.0000 0.9886090   6134.97
 1631.0000 0.9958690   6131.21
 1632.0000 0.9980210   6127.45
 1633.0000 1.0000000   6123.70
 1634.0000 0.9998480   6119.95
 1635.0000 0.9996420   6116.21
 1636.0000 0.9965900   6112.47
 1637.0000 0.9934390   6108.74
 1638.0000 0.9862170   6105.01
 1639.0000 0.9789890   6101.28
 1640.0000 0.9671250   6097.56
 1641.0000 0.9551200   6093.85
 1642.0000 0.9361990   6090.13
 1643.0000 0.9172390   6086.43
 1644.0000 0.8794240   6082.73
 1645.0000 0.8409670   6079.03
 1646.0000 0.7965450   6075.33
 1647.0000 0.7518930   6071.65
 1648.0000 0.6943130   6067.96
 1649.0000 0.6365420   6064.28
 1650.0000 0.5732320   6060.61
 1651.0000 0.5099460   6056.94
 1652.0000 0.4519660   6053.27
 1653.0000 0.3940300   6049.61
 1654.0000 0.3427500   6045.95
 1655.0000 0.2917520   6042.30
 1656.0000 0.2513090   6038.65
 1657.0000 0.2111530   6035.00
 1658.0000 0.1808230   6031.36
 1659.0000 0.1505400   6027.73
 1660.0000 0.1284630   6024.10
 1661.0000 0.1066640   6020.47
 1662.0000 0.0907350   6016.85
 1663.0000 0.0749410   6013.23
 1664.0000 0.0637900   6009.62
 1665.0000 0.0527520   6006.01
 1666.0000 0.0450280   6002.40
 1667.0000 0.0373100   5998.80
 1668.0000 0.0318210   5995.20
 1669.0000 0.0263500   5991.61
 1670.0000 0.0225040   5988.02
 1671.0000 0.0187240   5984.44
 1672.0000 0.0160450   5980.86
 1673.0000 0.0133940   5977.29
 1674.0000 0.0114830   5973.72
 1675.0000 0.0095870   5970.15
 1676.0000 0.0082270   5966.59
 1677.0000 0.0068820   5963.03
 1678.0000 0.0059100   5959.48
 1679.0000 0.0049400   5955.93
 1680.0000 0.0042570   5952.38
 1681.0000 0.0035760   5948.84
 1682.0000 0.0030550   5945.30
 1683.0000 0.0025410   5941.77
 1684.0000 0.0021600   5938.24
 1685.0000 0.0017810   5934.72
 1686.0000 0.0015120   5931.20
 1687.0000 0.0012440   5927.68
 1688.0000 0.0010400   5924.17
 1689.0000 0.0008370   5920.66
 1690.0000 0.0006770   5917.16
 1691.0000 0.0005170   5913.66
 1692.0000 0.0004090   5910.17
 1693.0000 0.0003010   5906.67
 1694.0000 0.0002060   5903.19
 1695.0000 0.0001120   5899.71
 1696.0000 0.0000400   5896.23
 1697.0000 0.0000000   5892.75
SW2
 2037.0000 0.0000000   4909.18
 2038.0000 0.0000370   4906.77
 2039.0000 0.0000830   4904.36
 2040.0000 0.0001310   4901.96
 2041.0000 0.0001790   4899.56
 2042.0000 0.0002400   4897.16
 2043.0000 0.0003050   4894.76
 2044.0000 0.0003680   4892.37
 2045.0000 0.0004300   4889.98
 2046.0000 0.0005120   4887.59
 2047.0000 0.0005990   4885.20
 2048.0000 0.0007040   4882.81
 2049.0000 0.0008140   4880.43
 2050.0000 0.0009470   4878.05
 2051.0000 0.0010850   4875.67
 2052.0000 0.0012220   4873.29
 2053.0000 0.0013600   4870.92
 2054.0000 0.0015460   4868.55
 2055.0000 0.0017450   4866.18
 2056.0000 0.0019640   4863.81
 2057.0000 0.0021870   4861.45
 2058.0000 0.0024390   4859.09
 2059.0000 0.0026960   4856.73
 2060.0000 0.0030100   4854.37
 2061.0000 0.0033390   4852.01
 2062.0000 0.0037330   4849.66
 2063.0000 0.0041410   4847.31
 2064.0000 0.0046270   4844.96
 2065.0000 0.0051370   4842.62
 2066.0000 0.0057280   4840.27
 2067.0000 0.0063370   4837.93
 2068.0000 0.0071390   4835.59
 2069.0000 0.0079960   4833.25
 2070.0000 0.0089030   4830.92
 2071.0000 0.0098240   4828.59
 2072.0000 0.0110050   4826.25
 2073.0000 0.0122610   4823.93
 2074.0000 0.0136100   4821.60
 2075.0000 0.0149870   4819.28
 2076.0000 0.0168720   4816.96
 2077.0000 0.0188990   4814.64
 2078.0000 0.0210000   4812.32
 2079.0000 0.0231210   4810.00
 2080.0000 0.0258970   4807.69
 2081.0000 0.0288470   4805.38
 2082.0000 0.0320710   4803.07
 2083.0000 0.0353630   4800.77
 2084.0000 0.0402060   4798.46
 2085.0000 0.0454320   4796.16
 2086.0000 0.0509030   4793.86
 2087.0000 0.0564290   4791.57
 2088.0000 0.0632700   4789.27
 2089.0000 0.0704090   4786.98
 2090.0000 0.0793820   4784.69
 2091.0000 0.0889070   4782.40
 2092.0000 0.1006400   4780.11
 2093.0000 0.1128300   4777.83
 2094.0000 0.1282920   4775.55
 2095.0000 0.1446680   4773.27
 2096.0000 0.1620550   4770.99
 2097.0000 0.1797140   4768.72
 2098.0000 0.2027800   4766.44
 2099.0000 0.2272340   4764.17
 2100.0000 0.2537320   4761.90
 2101.0000 0.2809250   4759.64
 2102.0000 0.3113470   4757.37
 2103.0000 0.3425260   4755.11
 2104.0000 0.3770440   4752.85
 2105.0000 0.4126210   4750.59
 2106.0000 0.4504700   4748.34
 2107.0000 0.4888160   4746.08
 2108.0000 0.5224580   4743.83
 2109.0000 0.5547150   4741.58
 2110.0000 0.5932270   4739.34
 2111.0000 0.6335210   4737.09
 2112.0000 0.6630670   4734.85
 2113.0000 0.6896640   4732.61
 2114.0000 0.7222840   4730.37
 2115.0000 0.7565290   4728.13
 2116.0000 0.7764630   4725.90
 2117.0000 0.7926670   4723.67
 2118.0000 0.8137160   4721.44
 2119.0000 0.8360010   4719.21
 2120.0000 0.8463440   4716.98
 2121.0000 0.8537140   4714.76
 2122.0000 0.8678450   4712.54
 2123.0000 0.8836150   4710.32
 2124.0000 0.8864110   4708.10
 2125.0000 0.8861270   4705.88
 2126.0000 0.8952320   4703.67
 2127.0000 0.9065270   4701.46
 2128.0000 0.9097390   4699.25
 2129.0000 0.9110910   4697.04
 2130.0000 0.9179850   4694.84
 2131.0000 0.9261310   4692.63
 2132.0000 0.9296930   4690.43
 2133.0000 0.9322270   4688.23
 2134.0000 0.9365440   4686.04
 2135.0000 0.9414060   4683.84
 2136.0000 0.9425710   4681.65
 2137.0000 0.9429520   4679.46
 2138.0000 0.9431120   4677.27
 2139.0000 0.9431940   4675.08
 2140.0000 0.9451680   4672.90
 2141.0000 0.9475370   4670.71
 2142.0000 0.9487760   4668.53
 2143.0000 0.9496940   4666.36
 2144.0000 0.9496430   4664.18
 2145.0000 0.9494000   4662.00
 2146.0000 0.9525510   4659.83
 2147.0000 0.9566350   4657.66
 2148.0000 0.9530830   4655.49
 2149.0000 0.9474230   4653.33
 2150.0000 0.9490940   4651.16
 2151.0000 0.9527730   4649.00
 2152.0000 0.9508740   4646.84
 2153.0000 0.9474770   4644.68
 2154.0000 0.9470140   4642.53
 2155.0000 0.9470850   4640.37
 2156.0000 0.9518120   4638.22
 2157.0000 0.9577170   4636.07
 2158.0000 0.9533320   4633.92
 2159.0000 0.9464120   4631.77
 2160.0000 0.9477780   4629.63
 2161.0000 0.9511190   4627.49
 2162.0000 0.9516410   4625.35
 2163.0000 0.9515180   4623.21
 2164.0000 0.9486440   4621.07
 2165.0000 0.9449560   4618.94
 2166.0000 0.9425150   4616.81
 2167.0000 0.9403110   4614.67
 2168.0000 0.9434000   4612.55
 2169.0000 0.9479230   4610.42
 2170.0000 0.9450100   4608.29
 2171.0000 0.9402130   4606.17
 2172.0000 0.9387370   4604.05
 2173.0000 0.9380600   4601.93
 2174.0000 0.9418590   4599.82
 2175.0000 0.9470190   4597.70
 2176.0000 0.9465540   4595.59
 2177.0000 0.9444820   4593.48
 2178.0000 0.9474140   4591.37
 2179.0000 0.9516610   4589.26
 2180.0000 0.9492830   4587.16
 2181.0000 0.9453180   4585.05
 2182.0000 0.9399390   4582.95
 2183.0000 0.9341420   4580.85
 2184.0000 0.9354930   4578.75
 2185.0000 0.9388200   4576.66
 2186.0000 0.9392530   4574.57
 2187.0000 0.9389550   4572.47
 2188.0000 0.9346750   4570.38
 2189.0000 0.9291620   4568.30
 2190.0000 0.9270850   4566.21
 2191.0000 0.9256920   4564.13
 2192.0000 0.9305080   4562.04
 2193.0000 0.9368990   4559.96
 2194.0000 0.9339080   4557.89
 2195.0000 0.9279840   4555.81
 2196.0000 0.9309810   4553.73
 2197.0000 0.9364720   4551.66
 2198.0000 0.9357760   4549.59
 2199.0000 0.9335230   4547.52
 2200.0000 0.9351320   4545.45
 2201.0000 0.9375920   4543.39
 2202.0000 0.9462170   4541.33
 2203.0000 0.9565670   4539.26
 2204.0000 0.9556610   4537.21
 2205.0000 0.9519910   4535.15
 2206.0000 0.9566660   4533.09
 2207.0000 0.9631350   4531.04
 2208.0000 0.9644420   4528.99
 2209.0000 0.9643650   4526.94
 2210.0000 0.9635230   4524.89
 2211.0000 0.9624340   4522.84
 2212.0000 0.9629050   4520.80
 2213.0000 0.9636850   4518.75
 2214.0000 0.9624730   4516.71
 2215.0000 0.9607410   4514.67
 2216.0000 0.9592390   4512.64
 2217.0000 0.9578140   4510.60
 2218.0000 0.9577810   4508.57
 2219.0000 0.9580410   4506.53
 2220.0000 0.9532740   4504.50
 2221.0000 0.9471600   4502.48
 2222.0000 0.9517060   4500.45
 2223.0000 0.9588330   4498.43
 2224.0000 0.9602120   4496.40
 2225.0000 0.9603390   4494.38
 2226.0000 0.9547850   4492.36
 2227.0000 0.9476960   4490.35
 2228.0000 0.9519650   4488.33
 2229.0000 0.9590600   4486.32
 2230.0000 0.9605540   4484.30
 2231.0000 0.9607640   4482.29
 2232.0000 0.9557500   4480.29
 2233.0000 0.9492610   4478.28
 2234.0000 0.9532450   4476.28
 2235.0000 0.9599700   4474.27
 2236.0000 0.9637360   4472.27
 2237.0000 0.9667860   4470.27
 2238.0000 0.9643150   4468.28
 2239.0000 0.9601730   4466.28
 2240.0000 0.9654730   4464.29
 2241.0000 0.9734160   4462.29
 2242.0000 0.9776370   4460.30
 2243.0000 0.9809040   4458.31
 2244.0000 0.9827600   4456.33
 2245.0000 0.9841550   4454.34
 2246.0000 0.9846930   4452.36
 2247.0000 0.9850560   4450.38
 2248.0000 0.9914860   4448.40
 2249.0000 0.9996000   4446.42
 2250.0000 0.9976540   4444.44
 2251.0000 0.9931530   4442.47
 2252.0000 0.9924690   4440.50
 2253.0000 0.9926750   4438.53
 2254.0000 0.9958940   4436.56
 2255.0000 1.0000000   4434.59
 2256.0000 0.9992790   4432.62
 2257.0000 0.9972610   4430.66
 2258.0000 0.9943560   4428.70
 2259.0000 0.9911270   4426.74
 2260.0000 0.9877470   4424.78
 2261.0000 0.9843490   4422.82
 2262.0000 0.9860370   4420.87
 2263.0000 0.9891320   4418.91
 2264.0000 0.9845360   4416.96
 2265.0000 0.9780240   4415.01
 2266.0000 0.9750190   4413.06
 2267.0000 0.9727940   4411.12
 2268.0000 0.9741680   4409.17
 2269.0000 0.9765400   4407.23
 2270.0000 0.9761990   4405.29
 2271.0000 0.9752060   4403.35
 2272.0000 0.9744090   4401.41
 2273.0000 0.9736620   4399.47
 2274.0000 0.9675020   4397.54
 2275.0000 0.9598950   4395.60
 2276.0000 0.9569430   4393.67
 2277.0000 0.9550950   4391.74
 2278.0000 0.9550850   4389.82
 2279.0000 0.9555880   4387.89
 2280.0000 0.9471950   4385.96
 2281.0000 0.9366500   4384.04
 2282.0000 0.9224050   4382.12
 2283.0000 0.9071090   4380.20
 2284.0000 0.8949400   4378.28
 2285.0000 0.8835880   4376.37
 2286.0000 0.8554890   4374.45
 2287.0000 0.8238760   4372.54
 2288.0000 0.7848800   4370.63
 2289.0000 0.7440250   4368.72
 2290.0000 0.6985200   4366.81
 2291.0000 0.6516730   4364.91
 2292.0000 0.6025390   4363.00
 2293.0000 0.5526470   4361.10
 2294.0000 0.5026930   4359.20
 2295.0000 0.4526980   4357.30
 2296.0000 0.4039930   4355.40
 2297.0000 0.3555690   4353.50
 2298.0000 0.3157120   4351.61
 2299.0000 0.2782600   4349.72
 2300.0000 0.2446450   4347.83
 2301.0000 0.2122130   4345.94
 2302.0000 0.1861510   4344.05
 2303.0000 0.1617490   4342.16
 2304.0000 0.1414350   4340.28
 2305.0000 0.1220150   4338.39
 2306.0000 0.1065310   4336.51
 2307.0000 0.0920290   4334.63
 2308.0000 0.0802680   4332.76
 2309.0000 0.0692760   4330.88
 2310.0000 0.0607030   4329.00
 2311.0000 0.0527020   4327.13
 2312.0000 0.0463320   4325.26
 2313.0000 0.0404050   4323.39
 2314.0000 0.0356340   4321.52
 2315.0000 0.0312130   4319.65
 2316.0000 0.0275160   4317.79
 2317.0000 0.0240000   4315.93
 2318.0000 0.0212620   4314.06
 2319.0000 0.0186880   4312.20
 2320.0000 0.0165620   4310.34
 2321.0000 0.0145450   4308.49
 2322.0000 0.0129300   4306.63
 2323.0000 0.0114260   4304.78
 2324.0000 0.0101550   4302.93
 2325.0000 0.0089590   4301.08
 2326.0000 0.0079920   4299.23
 2327.0000 0.0070880   4297.38
 2328.0000 0.0063480   4295.53
 2329.0000 0.0056430   4293.69
 2330.0000 0.0050190   4291.85
 2331.0000 0.0044150   4290.00
 2332.0000 0.0039030   4288.16
 2333.0000 0.0034210   4286.33
 2334.0000 0.0030250   4284.49
 2335.0000 0.0026510   4282.66
 2336.0000 0.0023400   4280.82
 2337.0000 0.0020470   4278.99
 2338.0000 0.0017950   4277.16
 2339.0000 0.0015540   4275.33
 2340.0000 0.0013450   4273.50
 2341.0000 0.0011450   4271.68
 2342.0000 0.0009740   4269.85
 2343.0000 0.0008110   4268.03
 2344.0000 0.0006800   4266.21
 2345.0000 0.0005600   4264.39
 2346.0000 0.0004400   4262.57
 2347.0000 0.0003200   4260.76
 2348.0000 0.0002170   4258.94
 2349.0000 0.0001190   4257.13
 2350.0000 0.0000280   4255.32
 2351.0000 0.0000000   4253.51
Pan
  487.0000 0.0000000  20533.88
  488.0000 0.0002160  20491.80
  489.0000 0.0005140  20449.90
  490.0000 0.0010130  20408.16
  491.0000 0.0015870  20366.60
  492.0000 0.0026190  20325.20
  493.0000 0.0038410  20283.98
  494.0000 0.0061950  20242.91
  495.0000 0.0090030  20202.02
  496.0000 0.0155150  20161.29
  497.0000 0.0232700  20120.72
  498.0000 0.0427230  20080.32
  499.0000 0.0665560  20040.08
  500.0000 0.1242690  20000.00
  501.0000 0.1960060  19960.08
  502.0000 0.3232320  19920.32
  503.0000 0.4724960  19880.72
  504.0000 0.5983020  19841.27
  505.0000 0.7148160  19801.98
  506.0000 0.7760090  19762.85
  507.0000 0.8165550  19723.87
  508.0000 0.8318810  19685.04
  509.0000 0.8379940  19646.37
  510.0000 0.8489750  19607.84
  511.0000 0.8616680  19569.47
  512.0000 0.8627050  19531.25
  513.0000 0.8596400  19493.18
  514.0000 0.8585320  19455.25
  515.0000 0.8582440  19417.48
  516.0000 0.8571480  19379.84
  517.0000 0.8557590  19342.36
  518.0000 0.8584550  19305.02
  519.0000 0.8628340  19267.82
  520.0000 0.8606090  19230.77
  521.0000 0.8559930  19193.86
  522.0000 0.8527850  19157.09
  523.0000 0.8501830  19120.46
  524.0000 0.8527880  19083.97
  525.0000 0.8573170  19047.62
  526.0000 0.8591300  19011.41
  527.0000 0.8598760  18975.33
  528.0000 0.8615080  18939.39
  529.0000 0.8634940  18903.59
  530.0000 0.8602650  18867.92
  531.0000 0.8551020  18832.39
  532.0000 0.8644230  18796.99
  533.0000 0.8792490  18761.73
  534.0000 0.8855930  18726.59
  535.0000 0.8886630  18691.59
  536.0000 0.8947580  18656.72
  537.0000 0.9020170  18621.97
  538.0000 0.9062940  18587.36
  539.0000 0.9092900  18552.88
  540.0000 0.9117340  18518.52
  541.0000 0.9140000  18484.29
  542.0000 0.9097760  18450.18
  543.0000 0.9029390  18416.21
  544.0000 0.9089190  18382.35
  545.0000 0.9198590  18348.62
  546.0000 0.9216200  18315.02
  547.0000 0.9194560  18281.54
  548.0000 0.9130200  18248.18
  549.0000 0.9051340  18214.94
  550.0000 0.8927020  18181.82
  551.0000 0.8785990  18148.82
  552.0000 0.8768380  18115.94
  553.0000 0.8794430  18083.18
  554.0000 0.8783030  18050.54
  555.0000 0.8756920  18018.02
  556.0000 0.8726660  17985.61
  557.0000 0.8694780  17953.32
  558.0000 0.8753610  17921.15
  559.0000 0.8847590  17889.09
  560.0000 0.8899030  17857.14
  561.0000 0.8934270  17825.31
  562.0000 0.8859480  17793.59
  563.0000 0.8740970  17761.99
  564.0000 0.8756740  17730.50
  565.0000 0.8824020  17699.12
  566.0000 0.8913750  17667.84
  567.0000 0.9011940  17636.68
  568.0000 0.9035280  17605.63
  569.0000 0.9028260  17574.69
  570.0000 0.9075510  17543.86
  571.0000 0.9143500  17513.13
  572.0000 0.9149320  17482.52
  573.0000 0.9131900  17452.01
  574.0000 0.9155080  17421.60
  575.0000 0.9195540  17391.30
  576.0000 0.9208020  17361.11
  577.0000 0.9210400  17331.02
  578.0000 0.9244310  17301.04
  579.0000 0.9291050  17271.16
  580.0000 0.9300680  17241.38
  581.0000 0.9295510  17211.70
  582.0000 0.9375490  17182.13
  583.0000 0.9488630  17152.66
  584.0000 0.9470840  17123.29
  585.0000 0.9402730  17094.02
  586.0000 0.9408130  17064.85
  587.0000 0.9441360  17035.78
  588.0000 0.9456740  17006.80
  589.0000 0.9465660  16977.93
  590.0000 0.9424620  16949.15
  591.0000 0.9362980  16920.47
  592.0000 0.9396210  16891.89
  593.0000 0.9466590  16863.41
  594.0000 0.9423740  16835.02
  595.0000 0.9338390  16806.72
  596.0000 0.9342500  16778.52
  597.0000 0.9378400  16750.42
  598.0000 0.9408380  16722.41
  599.0000 0.9436260  16694.49
  600.0000 0.9524150  16666.67
  601.0000 0.9636640  16638.94
  602.0000 0.9673810  16611.30
  603.0000 0.9682410  16583.75
  604.0000 0.9682330  16556.29
  605.0000 0.9678780  16528.93
  606.0000 0.9650830  16501.65
  607.0000 0.9613670  16474.46
  608.0000 0.9572320  16447.37
  609.0000 0.9529390  16420.36
  610.0000 0.9493450  16393.44
  611.0000 0.9460060  16366.61
  612.0000 0.9480810  16339.87
  613.0000 0.9524650  16313.21
  614.0000 0.9545260  16286.64
  615.0000 0.9558140  16260.16
  616.0000 0.9591490  16233.77
  617.0000 0.9632160  16207.46
  618.0000 0.9641580  16181.23
  619.0000 0.9639530  16155.09
  620.0000 0.9659430  16129.03
  621.0000 0.9687890  16103.06
  622.0000 0.9726880  16077.17
  623.0000 0.9770260  16051.36
  624.0000 0.9780280  16025.64
  625.0000 0.9779010  16000.00
  626.0000 0.9741580  15974.44
  627.0000 0.9690780  15948.96
  628.0000 0.9695830  15923.57
  629.0000 0.9722970  15898.25
  630.0000 0.9729060  15873.02
  631.0000 0.9727080  15847.86
  632.0000 0.9697320  15822.78
  633.0000 0.9657800  15797.79
  634.0000 0.9655610  15772.87
  635.0000 0.9668350  15748.03
  636.0000 0.9666410  15723.27
  637.0000 0.9658990  15698.59
  638.0000 0.9720670  15673.98
  639.0000 0.9810770  15649.45
  640.0000 0.9809710  15625.00
  641.0000 0.9777220  15600.62
  642.0000 0.9744050  15576.32
  643.0000 0.9711230  15552.10
  644.0000 0.9631390  15527.95
  645.0000 0.9532600  15503.88
  646.0000 0.9534940  15479.88
  647.0000 0.9575360  15455.95
  648.0000 0.9638510  15432.10
  649.0000 0.9709280  15408.32
  650.0000 0.9694530  15384.62
  651.0000 0.9647500  15360.98
  652.0000 0.9665410  15337.42
  653.0000 0.9706130  15313.94
  654.0000 0.9739410  15290.52
  655.0000 0.9770550  15267.18
  656.0000 0.9828940  15243.90
  657.0000 0.9897700  15220.70
  658.0000 0.9883020  15197.57
  659.0000 0.9835420  15174.51
  660.0000 0.9879680  15151.52
  661.0000 0.9955380  15128.59
  662.0000 0.9985790  15105.74
  663.0000 1.0000000  15082.96
  664.0000 0.9998100  15060.24
  665.0000 0.9990610  15037.59
  666.0000 0.9978910  15015.02
  667.0000 0.9965800  14992.50
  668.0000 0.9925550  14970.06
  669.0000 0.9873690  14947.68
  670.0000 0.9858620  14925.37
  671.0000 0.9857610  14903.13
  672.0000 0.9556790  14880.95
  673.0000 0.9139450  14858.84
  674.0000 0.7801400  14836.80
  675.0000 0.6101970  14814.81
  676.0000 0.4385560  14792.90
  677.0000 0.2667140  14771.05
  678.0000 0.1673130  14749.26
  679.0000 0.0940130  14727.54
  680.0000 0.0575640  14705.88
  681.0000 0.0347870  14684.29
  682.0000 0.0228820  14662.76
  683.0000 0.0151780  14641.29
  684.0000 0.0107550  14619.88
  685.0000 0.0076630  14598.54
  686.0000 0.0057560  14577.26
  687.0000 0.0042920  14556.04
  688.0000 0.0032200  14534.88
  689.0000 0.0022830  14513.79
  690.0000 0.0015450  14492.75
  691.0000 0.0008790  14471.78
  692.0000 0.0002140  14450.87
  693.0000 0.0000000  14430.01
