N Landsat 8 Relative SWIR Spectral Response V1.2
Cir
 1340.0000 0.0000000   7462.69
 1341.0000 0.0000860   7457.12
 1342.0000 0.0001940   7451.56
 1343.0000 0.0003210   7446.02
 1344.0000 0.0004690   7440.48
 1345.0000 0.0006470   7434.94
 1346.0000 0.0008560   7429.42
 1347.0000 0.0011190   7423.90
 1348.0000 0.0014290   7418.40
 1349.0000 0.0018280   7412.90
 1350.0000 0.0023180   7407.41
 1351.0000 0.0030300   7401.92
 1352.0000 0.0040110   7396.45
 1353.0000 0.0053980   7390.98
 1354.0000 0.0071940   7385.52
 1355.0000 0.0111240   7380.07
 1356.0000 0.0169850   7374.63
 1357.0000 0.0263210   7369.20
 1358.0000 0.0427560   7363.77
 1359.0000 0.0692200   7358.35
 1360.0000 0.1153510   7352.94
 1361.0000 0.1828330   7347.54
 1362.0000 0.3163330   7342.14
 1363.0000 0.4570300   7336.76
 1364.0000 0.5968520   7331.38
 1365.0000 0.7721180   7326.01
 1366.0000 0.8623940   7320.64
 1367.0000 0.8715750   7315.29
 1368.0000 0.9303080   7309.94
 1369.0000 0.9626640   7304.60
 1370.0000 0.9312470   7299.27
 1371.0000 0.9386760   7293.95
 1372.0000 0.9837480   7288.63
 1373.0000 0.9996260   7283.32
 1374.0000 0.9869680   7278.02
 1375.0000 1.0000000   7272.73
 1376.0000 0.9832390   7267.44
 1377.0000 0.9905770   7262.16
 1378.0000 0.9635840   7256.89
 1379.0000 0.9640540   7251.63
 1380.0000 0.8713430   7246.38
 1381.0000 0.8726890   7241.13
 1382.0000 0.7031980   7235.89
 1383.0000 0.6065780   7230.66
 1384.0000 0.4524340   7225.43
 1385.0000 0.2979200   7220.22
 1386.0000 0.1909780   7215.01
 1387.0000 0.1130550   7209.81
 1388.0000 0.0661740   7204.61
 1389.0000 0.0415130   7199.42
 1390.0000 0.0260840   7194.24
 1391.0000 0.0162180   7189.07
 1392.0000 0.0097740   7183.91
 1393.0000 0.0068390   7178.75
 1394.0000 0.0043580   7173.60
 1395.0000 0.0027800   7168.46
 1396.0000 0.0018090   7163.32
 1397.0000 0.0013510   7158.20
 1398.0000 0.0008870   7153.08
 1399.0000 0.0004810   7147.96
 1400.0000 0.0002200   7142.86
 1401.0000 0.0001140   7137.76
 1402.0000 0.0000290   7132.67
 1403.0000 0.0000000   7127.58
SW1
 1515.0000 0.0000000   6600.66
 1516.0000 0.0000670   6596.31
 1517.0000 0.0001510   6591.96
 1518.0000 0.0002490   6587.62
 1519.0000 0.0003480   6583.28
 1520.0000 0.0004660   6578.95
 1521.0000 0.0005850   6574.62
 1522.0000 0.0007580   6570.30
 1523.0000 0.0009320   6565.99
 1524.0000 0.0011500   6561.68
 1525.0000 0.0013690   6557.38
 1526.0000 0.0016130   6553.08
 1527.0000 0.0018590   6548.79
 1528.0000 0.0021720   6544.50
 1529.0000 0.0024880   6540.22
 1530.0000 0.0028810   6535.95
 1531.0000 0.0032770   6531.68
 1532.0000 0.0037720   6527.42
 1533.0000 0.0042710   6523.16
 1534.0000 0.0048980   6518.90
 1535.0000 0.0055280   6514.66
 1536.0000 0.0064210   6510.42
 1537.0000 0.0073190   6506.18
 1538.0000 0.0084590   6501.95
 1539.0000 0.0096060   6497.73
 1540.0000 0.0109890   6493.51
 1541.0000 0.0123720   6489.29
 1542.0000 0.0143030   6485.08
 1543.0000 0.0162480   6480.88
 1544.0000 0.0190290   6476.68
 1545.0000 0.0218310   6472.49
 1546.0000 0.0258900   6468.31
 1547.0000 0.0299520   6464.12
 1548.0000 0.0351710   6459.95
 1549.0000 0.0404340   6455.78
 1550.0000 0.0478640   6451.61
 1551.0000 0.0553520   6447.45
 1552.0000 0.0657320   6443.30
 1553.0000 0.0761660   6439.15
 1554.0000 0.0890240   6435.01
 1555.0000 0.1018930   6430.87
 1556.0000 0.1201500   6426.74
 1557.0000 0.1386420   6422.61
 1558.0000 0.1631270   6418.49
 1559.0000 0.1878030   6414.37
 1560.0000 0.2202610   6410.26
 1561.0000 0.2528940   6406.15
 1562.0000 0.2913590   6402.05
 1563.0000 0.3299390   6397.95
 1564.0000 0.3756480   6393.86
 1565.0000 0.4214700   6389.78
 1566.0000 0.4735600   6385.70
 1567.0000 0.5256810   6381.62
 1568.0000 0.5787870   6377.55
 1569.0000 0.6316450   6373.49
 1570.0000 0.6766830   6369.43
 1571.0000 0.7212820   6365.37
 1572.0000 0.7547700   6361.32
 1573.0000 0.7882480   6357.28
 1574.0000 0.8211550   6353.24
 1575.0000 0.8540650   6349.21
 1576.0000 0.8733700   6345.18
 1577.0000 0.8918300   6341.15
 1578.0000 0.8998170   6337.14
 1579.0000 0.9072520   6333.12
 1580.0000 0.9130090   6329.11
 1581.0000 0.9186850   6325.11
 1582.0000 0.9229530   6321.11
 1583.0000 0.9271630   6317.12
 1584.0000 0.9268600   6313.13
 1585.0000 0.9264130   6309.15
 1586.0000 0.9250590   6305.17
 1587.0000 0.9236830   6301.20
 1588.0000 0.9239530   6297.23
 1589.0000 0.9242590   6293.27
 1590.0000 0.9228280   6289.31
 1591.0000 0.9213830   6285.36
 1592.0000 0.9220610   6281.41
 1593.0000 0.9227560   6277.46
 1594.0000 0.9246480   6273.53
 1595.0000 0.9266050   6269.59
 1596.0000 0.9345520   6265.66
 1597.0000 0.9425250   6261.74
 1598.0000 0.9443510   6257.82
 1599.0000 0.9458720   6253.91
 1600.0000 0.9461750   6250.00
 1601.0000 0.9464320   6246.10
 1602.0000 0.9470060   6242.20
 1603.0000 0.9475890   6238.30
 1604.0000 0.9501940   6234.41
 1605.0000 0.9528590   6230.53
 1606.0000 0.9513030   6226.65
 1607.0000 0.9496700   6222.78
 1608.0000 0.9530470   6218.91
 1609.0000 0.9564940   6215.04
 1610.0000 0.9590470   6211.18
 1611.0000 0.9615450   6207.32
 1612.0000 0.9600480   6203.47
 1613.0000 0.9583350   6199.63
 1614.0000 0.9598350   6195.79
 1615.0000 0.9614700   6191.95
 1616.0000 0.9608570   6188.12
 1617.0000 0.9601750   6184.29
 1618.0000 0.9608130   6180.47
 1619.0000 0.9614860   6176.65
 1620.0000 0.9647030   6172.84
 1621.0000 0.9679430   6169.03
 1622.0000 0.9693140   6165.23
 1623.0000 0.9705890   6161.43
 1624.0000 0.9737130   6157.64
 1625.0000 0.9769060   6153.85
 1626.0000 0.9791000   6150.06
 1627.0000 0.9812580   6146.28
 1628.0000 0.9812850   6142.51
 1629.0000 0.9813720   6138.74
 1630.0000 0.9886090   6134.97
 1631.0000 0.9958690   6131.21
 1632.0000 0.9980210   6127.45
 1633.0000 1.0000000   6123.70
 1634.0000 0.9998480   6119.95
 1635.0000 0.9996420   6116.21
 1636.0000 0.9965900   6112.47
 1637.0000 0.9934390   6108.74
 1638.0000 0.9862170   6105.01
 1639.0000 0.9789890   6101.28
 1640.0000 0.9671250   6097.56
 1641.0000 0.9551200   6093.85
 1642.0000 0.9361990   6090.13
 1643.0000 0.9172390   6086.43
 1644.0000 0.8794240   6082.73
 1645.0000 0.8409670   6079.03
 1646.0000 0.7965450   6075.33
 1647.0000 0.7518930   6071.65
 1648.0000 0.6943130   6067.96
 1649.0000 0.6365420   6064.28
 1650.0000 0.5732320   6060.61
 1651.0000 0.5099460   6056.94
 1652.0000 0.4519660   6053.27
 1653.0000 0.3940300   6049.61
 1654.0000 0.3427500   6045.95
 1655.0000 0.2917520   6042.30
 1656.0000 0.2513090   6038.65
 1657.0000 0.2111530   6035.00
 1658.0000 0.1808230   6031.36
 1659.0000 0.1505400   6027.73
 1660.0000 0.1284630   6024.10
 1661.0000 0.1066640   6020.47
 1662.0000 0.0907350   6016.85
 1663.0000 0.0749410   6013.23
 1664.0000 0.0637900   6009.62
 1665.0000 0.0527520   6006.01
 1666.0000 0.0450280   6002.40
 1667.0000 0.0373100   5998.80
 1668.0000 0.0318210   5995.20
 1669.0000 0.0263500   5991.61
 1670.0000 0.0225040   5988.02
 1671.0000 0.0187240   5984.44
 1672.0000 0.0160450   5980.86
 1673.0000 0.0133940   5977.29
 1674.0000 0.0114830   5973.72
 1675.0000 0.0095870   5970.15
 1676.0000 0.0082270   5966.59
 1677.0000 0.0068820   5963.03
 1678.0000 0.0059100   5959.48
 1679.0000 0.0049400   5955.93
 1680.0000 0.0042570   5952.38
 1681.0000 0.0035760   5948.84
 1682.0000 0.0030550   5945.30
 1683.0000 0.0025410   5941.77
 1684.0000 0.0021600   5938.24
 1685.0000 0.0017810   5934.72
 1686.0000 0.0015120   5931.20
 1687.0000 0.0012440   5927.68
 1688.0000 0.0010400   5924.17
 1689.0000 0.0008370   5920.66
 1690.0000 0.0006770   5917.16
 1691.0000 0.0005170   5913.66
 1692.0000 0.0004090   5910.17
 1693.0000 0.0003010   5906.67
 1694.0000 0.0002060   5903.19
 1695.0000 0.0001120   5899.71
 1696.0000 0.0000400   5896.23
 1697.0000 0.0000000   5892.75
SW2
 2037.0000 0.0000000   4909.18
 2038.0000 0.0000370   4906.77
 2039.0000 0.0000830   4904.36
 2040.0000 0.0001310   4901.96
 2041.0000 0.0001790   4899.56
 2042.0000 0.0002400   4897.16
 2043.0000 0.0003050   4894.76
 2044.0000 0.0003680   4892.37
 2045.0000 0.0004300   4889.98
 2046.0000 0.0005120   4887.59
 2047.0000 0.0005990   4885.20
 2048.0000 0.0007040   4882.81
 2049.0000 0.0008140   4880.43
 2050.0000 0.0009470   4878.05
 2051.0000 0.0010850   4875.67
 2052.0000 0.0012220   4873.29
 2053.0000 0.0013600   4870.92
 2054.0000 0.0015460   4868.55
 2055.0000 0.0017450   4866.18
 2056.0000 0.0019640   4863.81
 2057.0000 0.0021870   4861.45
 2058.0000 0.0024390   4859.09
 2059.0000 0.0026960   4856.73
 2060.0000 0.0030100   4854.37
 2061.0000 0.0033390   4852.01
 2062.0000 0.0037330   4849.66
 2063.0000 0.0041410   4847.31
 2064.0000 0.0046270   4844.96
 2065.0000 0.0051370   4842.62
 2066.0000 0.0057280   4840.27
 2067.0000 0.0063370   4837.93
 2068.0000 0.0071390   4835.59
 2069.0000 0.0079960   4833.25
 2070.0000 0.0089030   4830.92
 2071.0000 0.0098240   4828.59
 2072.0000 0.0110050   4826.25
 2073.0000 0.0122610   4823.93
 2074.0000 0.0136100   4821.60
 2075.0000 0.0149870   4819.28
 2076.0000 0.0168720   4816.96
 2077.0000 0.0188990   4814.64
 2078.0000 0.0210000   4812.32
 2079.0000 0.0231210   4810.00
 2080.0000 0.0258970   4807.69
 2081.0000 0.0288470   4805.38
 2082.0000 0.0320710   4803.07
 2083.0000 0.0353630   4800.77
 2084.0000 0.0402060   4798.46
 2085.0000 0.0454320   4796.16
 2086.0000 0.0509030   4793.86
 2087.0000 0.0564290   4791.57
 2088.0000 0.0632700   4789.27
 2089.0000 0.0704090   4786.98
 2090.0000 0.0793820   4784.69
 2091.0000 0.0889070   4782.40
 2092.0000 0.1006400   4780.11
 2093.0000 0.1128300   4777.83
 2094.0000 0.1282920   4775.55
 2095.0000 0.1446680   4773.27
 2096.0000 0.1620550   4770.99
 2097.0000 0.1797140   4768.72
 2098.0000 0.2027800   4766.44
 2099.0000 0.2272340   4764.17
 2100.0000 0.2537320   4761.90
 2101.0000 0.2809250   4759.64
 2102.0000 0.3113470   4757.37
 2103.0000 0.3425260   4755.11
 2104.0000 0.3770440   4752.85
 2105.0000 0.4126210   4750.59
 2106.0000 0.4504700   4748.34
 2107.0000 0.4888160   4746.08
 2108.0000 0.5224580   4743.83
 2109.0000 0.5547150   4741.58
 2110.0000 0.5932270   4739.34
 2111.0000 0.6335210   4737.09
 2112.0000 0.6630670   4734.85
 2113.0000 0.6896640   4732.61
 2114.0000 0.7222840   4730.37
 2115.0000 0.7565290   4728.13
 2116.0000 0.7764630   4725.90
 2117.0000 0.7926670   4723.67
 2118.0000 0.8137160   4721.44
 2119.0000 0.8360010   4719.21
 2120.0000 0.8463440   4716.98
 2121.0000 0.8537140   4714.76
 2122.0000 0.8678450   4712.54
 2123.0000 0.8836150   4710.32
 2124.0000 0.8864110   4708.10
 2125.0000 0.8861270   4705.88
 2126.0000 0.8952320   4703.67
 2127.0000 0.9065270   4701.46
 2128.0000 0.9097390   4699.25
 2129.0000 0.9110910   4697.04
 2130.0000 0.9179850   4694.84
 2131.0000 0.9261310   4692.63
 2132.0000 0.9296930   4690.43
 2133.0000 0.9322270   4688.23
 2134.0000 0.9365440   4686.04
 2135.0000 0.9414060   4683.84
 2136.0000 0.9425710   4681.65
 2137.0000 0.9429520   4679.46
 2138.0000 0.9431120   4677.27
 2139.0000 0.9431940   4675.08
 2140.0000 0.9451680   4672.90
 2141.0000 0.9475370   4670.71
 2142.0000 0.9487760   4668.53
 2143.0000 0.9496940   4666.36
 2144.0000 0.9496430   4664.18
 2145.0000 0.9494000   4662.00
 2146.0000 0.9525510   4659.83
 2147.0000 0.9566350   4657.66
 2148.0000 0.9530830   4655.49
 2149.0000 0.9474230   4653.33
 2150.0000 0.9490940   4651.16
 2151.0000 0.9527730   4649.00
 2152.0000 0.9508740   4646.84
 2153.0000 0.9474770   4644.68
 2154.0000 0.9470140   4642.53
 2155.0000 0.9470850   4640.37
 2156.0000 0.9518120   4638.22
 2157.0000 0.9577170   4636.07
 2158.0000 0.9533320   4633.92
 2159.0000 0.9464120   4631.77
 2160.0000 0.9477780   4629.63
 2161.0000 0.9511190   4627.49
 2162.0000 0.9516410   4625.35
 2163.0000 0.9515180   4623.21
 2164.0000 0.9486440   4621.07
 2165.0000 0.9449560   4618.94
 2166.0000 0.9425150   4616.81
 2167.0000 0.9403110   4614.67
 2168.0000 0.9434000   4612.55
 2169.0000 0.9479230   4610.42
 2170.0000 0.9450100   4608.29
 2171.0000 0.9402130   4606.17
 2172.0000 0.9387370   4604.05
 2173.0000 0.9380600   4601.93
 2174.0000 0.9418590   4599.82
 2175.0000 0.9470190   4597.70
 2176.0000 0.9465540   4595.59
 2177.0000 0.9444820   4593.48
 2178.0000 0.9474140   4591.37
 2179.0000 0.9516610   4589.26
 2180.0000 0.9492830   4587.16
 2181.0000 0.9453180   4585.05
 2182.0000 0.9399390   4582.95
 2183.0000 0.9341420   4580.85
 2184.0000 0.9354930   4578.75
 2185.0000 0.9388200   4576.66
 2186.0000 0.9392530   4574.57
 2187.0000 0.9389550   4572.47
 2188.0000 0.9346750   4570.38
 2189.0000 0.9291620   4568.30
 2190.0000 0.9270850   4566.21
 2191.0000 0.9256920   4564.13
 2192.0000 0.9305080   4562.04
 2193.0000 0.9368990   4559.96
 2194.0000 0.9339080   4557.89
 2195.0000 0.9279840   4555.81
 2196.0000 0.9309810   4553.73
 2197.0000 0.9364720   4551.66
 2198.0000 0.9357760   4549.59
 2199.0000 0.9335230   4547.52
 2200.0000 0.9351320   4545.45
 2201.0000 0.9375920   4543.39
 2202.0000 0.9462170   4541.33
 2203.0000 0.9565670   4539.26
 2204.0000 0.9556610   4537.21
 2205.0000 0.9519910   4535.15
 2206.0000 0.9566660   4533.09
 2207.0000 0.9631350   4531.04
 2208.0000 0.9644420   4528.99
 2209.0000 0.9643650   4526.94
 2210.0000 0.9635230   4524.89
 2211.0000 0.9624340   4522.84
 2212.0000 0.9629050   4520.80
 2213.0000 0.9636850   4518.75
 2214.0000 0.9624730   4516.71
 2215.0000 0.9607410   4514.67
 2216.0000 0.9592390   4512.64
 2217.0000 0.9578140   4510.60
 2218.0000 0.9577810   4508.57
 2219.0000 0.9580410   4506.53
 2220.0000 0.9532740   4504.50
 2221.0000 0.9471600   4502.48
 2222.0000 0.9517060   4500.45
 2223.0000 0.9588330   4498.43
 2224.0000 0.9602120   4496.40
 2225.0000 0.9603390   4494.38
 2226.0000 0.9547850   4492.36
 2227.0000 0.9476960   4490.35
 2228.0000 0.9519650   4488.33
 2229.0000 0.9590600   4486.32
 2230.0000 0.9605540   4484.30
 2231.0000 0.9607640   4482.29
 2232.0000 0.9557500   4480.29
 2233.0000 0.9492610   4478.28
 2234.0000 0.9532450   4476.28
 2235.0000 0.9599700   4474.27
 2236.0000 0.9637360   4472.27
 2237.0000 0.9667860   4470.27
 2238.0000 0.9643150   4468.28
 2239.0000 0.9601730   4466.28
 2240.0000 0.9654730   4464.29
 2241.0000 0.9734160   4462.29
 2242.0000 0.9776370   4460.30
 2243.0000 0.9809040   4458.31
 2244.0000 0.9827600   4456.33
 2245.0000 0.9841550   4454.34
 2246.0000 0.9846930   4452.36
 2247.0000 0.9850560   4450.38
 2248.0000 0.9914860   4448.40
 2249.0000 0.9996000   4446.42
 2250.0000 0.9976540   4444.44
 2251.0000 0.9931530   4442.47
 2252.0000 0.9924690   4440.50
 2253.0000 0.9926750   4438.53
 2254.0000 0.9958940   4436.56
 2255.0000 1.0000000   4434.59
 2256.0000 0.9992790   4432.62
 2257.0000 0.9972610   4430.66
 2258.0000 0.9943560   4428.70
 2259.0000 0.9911270   4426.74
 2260.0000 0.9877470   4424.78
 2261.0000 0.9843490   4422.82
 2262.0000 0.9860370   4420.87
 2263.0000 0.9891320   4418.91
 2264.0000 0.9845360   4416.96
 2265.0000 0.9780240   4415.01
 2266.0000 0.9750190   4413.06
 2267.0000 0.9727940   4411.12
 2268.0000 0.9741680   4409.17
 2269.0000 0.9765400   4407.23
 2270.0000 0.9761990   4405.29
 2271.0000 0.9752060   4403.35
 2272.0000 0.9744090   4401.41
 2273.0000 0.9736620   4399.47
 2274.0000 0.9675020   4397.54
 2275.0000 0.9598950   4395.60
 2276.0000 0.9569430   4393.67
 2277.0000 0.9550950   4391.74
 2278.0000 0.9550850   4389.82
 2279.0000 0.9555880   4387.89
 2280.0000 0.9471950   4385.96
 2281.0000 0.9366500   4384.04
 2282.0000 0.9224050   4382.12
 2283.0000 0.9071090   4380.20
 2284.0000 0.8949400   4378.28
 2285.0000 0.8835880   4376.37
 2286.0000 0.8554890   4374.45
 2287.0000 0.8238760   4372.54
 2288.0000 0.7848800   4370.63
 2289.0000 0.7440250   4368.72
 2290.0000 0.6985200   4366.81
 2291.0000 0.6516730   4364.91
 2292.0000 0.6025390   4363.00
 2293.0000 0.5526470   4361.10
 2294.0000 0.5026930   4359.20
 2295.0000 0.4526980   4357.30
 2296.0000 0.4039930   4355.40
 2297.0000 0.3555690   4353.50
 2298.0000 0.3157120   4351.61
 2299.0000 0.2782600   4349.72
 2300.0000 0.2446450   4347.83
 2301.0000 0.2122130   4345.94
 2302.0000 0.1861510   4344.05
 2303.0000 0.1617490   4342.16
 2304.0000 0.1414350   4340.28
 2305.0000 0.1220150   4338.39
 2306.0000 0.1065310   4336.51
 2307.0000 0.0920290   4334.63
 2308.0000 0.0802680   4332.76
 2309.0000 0.0692760   4330.88
 2310.0000 0.0607030   4329.00
 2311.0000 0.0527020   4327.13
 2312.0000 0.0463320   4325.26
 2313.0000 0.0404050   4323.39
 2314.0000 0.0356340   4321.52
 2315.0000 0.0312130   4319.65
 2316.0000 0.0275160   4317.79
 2317.0000 0.0240000   4315.93
 2318.0000 0.0212620   4314.06
 2319.0000 0.0186880   4312.20
 2320.0000 0.0165620   4310.34
 2321.0000 0.0145450   4308.49
 2322.0000 0.0129300   4306.63
 2323.0000 0.0114260   4304.78
 2324.0000 0.0101550   4302.93
 2325.0000 0.0089590   4301.08
 2326.0000 0.0079920   4299.23
 2327.0000 0.0070880   4297.38
 2328.0000 0.0063480   4295.53
 2329.0000 0.0056430   4293.69
 2330.0000 0.0050190   4291.85
 2331.0000 0.0044150   4290.00
 2332.0000 0.0039030   4288.16
 2333.0000 0.0034210   4286.33
 2334.0000 0.0030250   4284.49
 2335.0000 0.0026510   4282.66
 2336.0000 0.0023400   4280.82
 2337.0000 0.0020470   4278.99
 2338.0000 0.0017950   4277.16
 2339.0000 0.0015540   4275.33
 2340.0000 0.0013450   4273.50
 2341.0000 0.0011450   4271.68
 2342.0000 0.0009740   4269.85
 2343.0000 0.0008110   4268.03
 2344.0000 0.0006800   4266.21
 2345.0000 0.0005600   4264.39
 2346.0000 0.0004400   4262.57
 2347.0000 0.0003200   4260.76
 2348.0000 0.0002170   4258.94
 2349.0000 0.0001190   4257.13
 2350.0000 0.0000280   4255.32
 2351.0000 0.0000000   4253.51
